{
  "resourceType": "Bundle",
  "id": "062192e2-d896-45be-8675-437987066a26",
  "meta": {
    "versionId": "1",
    "lastUpdated": "2023-09-26T15:46:57.632+00:00",
    "profile": [
      "http://hl7.org/fhir/us/health-care-surveys-reporting/StructureDefinition/hcs-reporting-bundle"
    ]
  },
  "type": "message",
  "timestamp": "2023-09-26T15:46:48.5925906+00:00",
  "entry": [
    {
      "fullUrl": "MessageHeader/messageheader-example-reportheader",
      "resource": {
        "resourceType": "MessageHeader",
        "id": "messageheader-example-reportheader",
        "meta": {
          "versionId": "1",
          "lastUpdated": "2020-11-29T02:03:28.045+00:00",
          "profile": [
            "http://hl7.org/fhir/us/medmorph/StructureDefinition/us-ph-messageheader"
          ]
        },
        "text": {
          "status": "generated",
          "div": "<div xmlns=\"http://www.w3.org/1999/xhtml\">\n            <p>HCS minimum reporting data for hospital use case</p> \n          </div>"
        },
        "extension": [
          {
            "url": "http://hl7.org/fhir/us/medmorph/StructureDefinition/us-ph-data-encrypted-extension",
            "valueBoolean": false
          },
          {
            "url": "http://hl7.org/fhir/us/medmorph/StructureDefinition/us-ph-report-initiation-type",
            "valueCodeableConcept": {
              "coding": [
                {
                  "system": "http://hl7.org/fhir/us/medmorph/CodeSystem/us-ph-report-initiation-types",
                  "code": "subscription-notification"
                }
              ]
            }
          }
        ],
        "eventCoding": {
          "system": "http://hl7.org/fhir/us/medmorph/CodeSystem/us-ph-messageheader-message-types",
          "code": "healthcare-survey-report-message"
        },
        "destination": [
          {
            "name": "PHA endpoint",
            "endpoint": "http://example.pha.org/fhir"
          }
        ],
        "sender": {
          "reference": "Organization/example-healthcare-org"
        },
        "source": {
          "name": "Healthcare Organization",
          "software": "Backend Service App",
          "version": "3.1.45.AABB",
          "contact": {
            "system": "phone",
            "value": "+1 (917) 123 4567"
          },
          "endpoint": "http://example.healthcare.org/fhir"
        },
        "reason": {
          "coding": [
            {
              "system": "http://hl7.org/fhir/us/medmorph/CodeSystem/us-ph-triggerdefinition-namedevents",
              "code": "encounter-end"
            }
          ]
        },
        "focus": [
          {
            "reference": "Bundle/rep-hcs-hospital-min-bundle"
          }
        ]
      }
    },
    {
      "fullUrl": "Bundle/rep-hcs-hospital-min-bundle",
      "resource": {
        "resourceType": "Bundle",
        "id": "rep-hcs-hospital-min-bundle",
        "meta": {
          "versionId": "1",
          "lastUpdated": "2020-11-29T02:03:28.045+00:00",
          "profile": [
            "http://hl7.org/fhir/us/health-care-surveys-reporting/StructureDefinition/hcs-content-bundle"
          ]
        },
        "type": "collection",
        "timestamp": "2023-08-16T21:15:33+00:00",
        "entry": [
          {
            "fullUrl": "Composition/rep-hcs-composition-content-example",
            "resource": {
              "resourceType": "Composition",
              "id": "rep-hcs-composition-content-example",
              "meta": {
                "versionId": "23",
                "lastUpdated": "2021-08-19T22:06:32.441+00:00",
                "source": "#6i8cijintDjJ8In2",
                "profile": [
                  "http://hl7.org/fhir/us/health-care-surveys-reporting/StructureDefinition/hcs-composition"
                ]
              },
              "text": {
                "status": "extensions",
                "div": "<div xmlns=\"http://www.w3.org/1999/xhtml\"><p><b> Zarla Doy min data for HCS </b></p></div>"
              },
              "identifier": {
                "value": "c03eab8c-11e8-4d0c-ad2a-b385395e27db"
              },
              "status": "final",
              "type": {
                "coding": [
                  {
                    "system": "http://loinc.org",
                    "code": "75619-7"
                  }
                ]
              },
              "subject": {
                "reference": "Patient/zarla-doy"
              },
              "encounter": {
                "reference": "Encounter/hospital",
                "display": "Initial hospital visit by physician"
              },
              "date": "2023-08-15T22:13:23Z",
              "author": [
                {
                  "reference": "Practitioner/mcguken"
                }
              ],
              "title": "Health Care Survey Report",
              "section": [
                {
                  "title": "Reason for Visit Section",
                  "code": {
                    "coding": [
                      {
                        "system": "http://loinc.org",
                        "code": "29299-5",
                        "display": "Reason for visit Narrative"
                      }
                    ]
                  },
                  "text": {
                    "status": "generated",
                    "div": "<div xmlns=\"http://www.w3.org/1999/xhtml\">\n<p>Reason for Visit: Chronic obstructive lung disease (disorder)</p>\n</div>"
                  }
                },
                {
                  "title": "Problems Section",
                  "code": {
                    "coding": [
                      {
                        "system": "http://loinc.org",
                        "code": "11450-4",
                        "display": "Problem list - Reported"
                      }
                    ]
                  },
                  "text": {
                    "status": "generated",
                    "div": "<div xmlns=\"http://www.w3.org/1999/xhtml\">\n<p>Acute pulmonary edema (disorder)</p></div>"
                  },
                  "entry": [
                    {
                      "reference": "Condition/acute-pulmonary-edema"
                    }
                  ]
                },
                {
                  "title": "Allergies Section",
                  "code": {
                    "coding": [
                      {
                        "system": "http://loinc.org",
                        "code": "48765-2",
                        "display": "Allergies and adverse reactions Document"
                      }
                    ]
                  },
                  "text": {
                    "status": "generated",
                    "div": "<div xmlns=\"http://www.w3.org/1999/xhtml\"><p>Allergy to Penicillin</p></div>"
                  },
                  "entry": [
                    {
                      "reference": "AllergyIntolerance/penicillin"
                    }
                  ]
                },
                {
                  "title": "Medications Section",
                  "code": {
                    "coding": [
                      {
                        "system": "http://loinc.org",
                        "code": "10160-0",
                        "display": "History of Medication use Narrative"
                      }
                    ]
                  },
                  "text": {
                    "status": "generated",
                    "div": "<div xmlns=\"http://www.w3.org/1999/xhtml\">Taking Lisinopril</div>"
                  },
                  "entry": [
                    {
                      "reference": "MedicationAdministration/medicationadministration-lisinopril"
                    }
                  ]
                }
              ]
            }
          },
          {
            "fullUrl": "Encounter/hospital",
            "resource": {
              "resourceType": "Encounter",
              "id": "hospital",
              "meta": {
                "profile": [
                  "http://hl7.org/fhir/us/core/StructureDefinition/us-core-encounter"
                ]
              },
              "text": {
                "status": "extensions",
                "div": "<div xmlns=\"http://www.w3.org/1999/xhtml\"><p><b>Narrative</b></p><p><b>id</b>: hospital encounter</p><p><b>meta</b>: </p><p><b>status</b>: finished</p><p><b>class</b>: <span title=\"{http://terminology.hl7.org/CodeSystem/v3-ActCode IMP}\">inpatient</span></p><p><b>type</b>: <span title=\"Codes: {http://snomed.info/sct 69399002}\">Initial hospital visit by physician</span></p><p><b>subject</b>: <a href=\"Patient-example.html\">Generated Summary: id: example; Medical Record Number: 4399469315; active; Zarla Moon Doy ; ph: 616-676-5017, zdoyc@nymag.com; gender: female; birthDate: 1954-03-22</a></p><p><b>period</b>: start: 2023-08-13 end: 2023-08-15</p></div>"
              },
              "status": "finished",
              "class": {
                "system": "http://terminology.hl7.org/CodeSystem/v3-ActCode",
                "code": "IMP",
                "display": "inpatient encounter"
              },
              "type": [
                {
                  "coding": [
                    {
                      "system": "http://snomed.info/sct",
                      "code": "69399002",
                      "display": "Initial hospital visit by physician"
                    }
                  ],
                  "text": "Initial hospital visit by physician"
                }
              ],
              "subject": {
                "reference": "Patient/zarla-doy"
              },
              "participant": [
                {
                  "type": [
                    {
                      "coding": [
                        {
                          "system": "http://terminology.hl7.org/CodeSystem/v3-ParticipationType",
                          "code": "PPRF",
                          "display": "primary performer"
                        }
                      ]
                    }
                  ],
                  "period": {
                    "start": "2023-08-13T22:30:14+00:00",
                    "end": "2023-08-15T22:00:14+00:00"
                  },
                  "individual": {
                    "reference": "Practitioner/mcguken"
                  }
                }
              ],
              "period": {
                "start": "2023-08-13T22:00:14+00:00",
                "end": "2023-08-15T23:00:14+00:00"
              },
              "reasonCode": [
                {
                  "coding": [
                    {
                      "system": "http://snomed.info/sct",
                      "code": "364006",
                      "display": "Acute left-sided heart failure"
                    }
                  ]
                }
              ],
              "diagnosis": [
                {
                  "condition": {
                    "reference": "Condition/acute-pulmonary-edema"
                  },
                  "rank": 1
                }
              ]
            }
          },
          {
            "fullUrl": "Patient/zarla-doy",
            "resource": {
              "resourceType": "Patient",
              "id": "zarla-doy",
              "meta": {
                "profile": [
                  "http://hl7.org/fhir/us/core/StructureDefinition/us-core-patient"
                ]
              },
              "text": {
                "status": "extensions",
                "div": "<div xmlns=\"http://www.w3.org/1999/xhtml\"><p><b>Narrative</b></p><p><b>id</b>: example</p><p><b>meta</b>: </p><p><b>identifier</b>: Medical Record Number: 4399469315 </p><p><b>active</b>: true</p><p><b>name</b>: Zarla Moon Doy</p><p><b>telecom</b>: ph: 616-676-5017, zdoyc@nymag.com</p><p><b>gender</b>: female</p><p><b>birthDate</b>: 1954-03-22</p><p><b>address</b>: 79 Roth Alley Grand Rapids MI 49505</p></div>"
              },
              "extension": [
                {
                  "extension": [
                    {
                      "url": "ombCategory",
                      "valueCoding": {
                        "system": "urn:oid:2.16.840.1.113883.6.238",
                        "code": "1002-5",
                        "display": "American Indian or Alaska Native"
                      }
                    },
                    {
                      "url": "text",
                      "valueString": "American Indian or Alaska Native"
                    }
                  ],
                  "url": "http://hl7.org/fhir/us/core/StructureDefinition/us-core-race"
                },
                {
                  "extension": [
                    {
                      "url": "ombCategory",
                      "valueCoding": {
                        "system": "urn:oid:2.16.840.1.113883.6.238",
                        "code": "2186-5",
                        "display": "Not Hispanic or Latino"
                      }
                    },
                    {
                      "url": "text",
                      "valueString": "Not Hispanic or Latino"
                    }
                  ],
                  "url": "http://hl7.org/fhir/us/core/StructureDefinition/us-core-ethnicity"
                },
                {
                  "url": "http://hl7.org/fhir/us/core/StructureDefinition/us-core-birthsex",
                  "valueCode": "F"
                }
              ],
              "identifier": [
                {
                  "use": "usual",
                  "type": {
                    "coding": [
                      {
                        "system": "http://terminology.hl7.org/CodeSystem/v2-0203",
                        "code": "MR",
                        "display": "Medical Record Number"
                      }
                    ],
                    "text": "Medical Record Number"
                  },
                  "system": "http://hospital.smarthealthit.org",
                  "value": "4399469315"
                }
              ],
              "active": true,
              "name": [
                {
                  "text": "Winter, Harlan Rosemary",
                  "family": "Winter",
                  "given": [
                    "Harlan",
                    "Rosemary"
                  ],
                  "period": {
                    "start": "1954-03-22",
                    "end": "1984-09-22"
                  }
                },
                {
                  "family": "Doy",
                  "given": [
                    "Zarla",
                    "Moon"
                  ],
                  "period": {
                    "start": "1984-09-22"
                  }
                }
              ],
              "telecom": [
                {
                  "system": "phone",
                  "value": "7731520022",
                  "use": "mobile"
                },
                {
                  "system": "email",
                  "value": "zdoyc@nymag.com"
                }
              ],
              "gender": "female",
              "birthDate": "1989-03-25",
              "address": [
                {
                  "text": "1805 Maple Ct\nSt. Petersburg, LA 12167\nUS",
                  "line": [
                    "1805 Maple Ct"
                  ],
                  "city": "St. Petersburg",
                  "state": "LA",
                  "postalCode": "12167",
                  "country": "US",
                  "period": {
                    "start": "2000-12-30"
                  }
                }
              ],
              "communication": [
                {
                  "language": {
                    "coding": [
                      {
                        "system": "urn:ietf:bcp:47",
                        "code": "en-US",
                        "display": "English (United States)"
                      }
                    ]
                  },
                  "preferred": true
                }
              ],
              "generalPractitioner": [
                {
                  "reference": "Practitioner/mcguken",
                  "display": "Taylor,Lloyd"
                }
              ]
            }
          },
          {
            "fullUrl": "Condition/acute-pulmonary-edema",
            "resource": {
              "resourceType": "Condition",
              "id": "acute-pulmonary-edema",
              "meta": {
                "profile": [
                  "http://hl7.org/fhir/us/core/StructureDefinition/us-core-condition"
                ]
              },
              "text": {
                "status": "extensions",
                "div": "<div xmlns=\"http://www.w3.org/1999/xhtml\"><p><b>Narrative</b></p><p><b>id</b>: example</p><p><b>meta</b>: </p><p><b>clinicalStatus</b>: <span title=\"Codes: {http://terminology.hl7.org/CodeSystem/condition-clinical active}\">Active</span></p><p><b>verificationStatus</b>: <span title=\"Codes: {http://terminology.hl7.org/CodeSystem/condition-ver-status confirmed}\">Confirmed</span></p><p><b>category</b>: <span title=\"Codes: {http://terminology.hl7.org/CodeSystem/condition-category encounter-diagnosis}\">Problem</span></p><p><b>code</b>: <span title=\"Codes: {http://snomed.info/sct 40541001}\">Acute pulmonary edema (disorder)</span></p><p><b>subject</b>: <a href=\"Patient-example.html\">Zarla Moon Doy. Generated Summary: id: example; Medical Record Number: 4399469315; active; Zarla Moon Doy; ph: 616-676-5017, zdoyc@nymag.com; gender: female; birthDate: 1954-03-22</a></p><p><b>onset</b>: 2023-08-13</p></div>"
              },
              "clinicalStatus": {
                "coding": [
                  {
                    "system": "http://terminology.hl7.org/CodeSystem/condition-clinical",
                    "code": "active",
                    "display": "Active"
                  }
                ],
                "text": "Active"
              },
              "verificationStatus": {
                "coding": [
                  {
                    "system": "http://terminology.hl7.org/CodeSystem/condition-ver-status",
                    "code": "confirmed",
                    "display": "Confirmed"
                  }
                ],
                "text": "Confirmed"
              },
              "category": [
                {
                  "coding": [
                    {
                      "system": "http://terminology.hl7.org/CodeSystem/condition-category",
                      "code": "encounter-diagnosis",
                      "display": "Encounter Diagnosis"
                    }
                  ],
                  "text": "Encounter Diagnosis"
                }
              ],
              "code": {
                "coding": [
                  {
                    "system": "http://snomed.info/sct",
                    "code": "40541001",
                    "display": "Acute pulmonary edema (disorder)"
                  }
                ],
                "text": "Acute pulmonary edema (disorder)"
              },
              "subject": {
                "reference": "Patient/zarla-doy"
              },
              "onsetDateTime": "2023-08-13"
            }
          },
          {
            "fullUrl": "Practitioner/mcguken",
            "resource": {
              "resourceType": "Practitioner",
              "id": "mcguken",
              "meta": {
                "profile": [
                  "http://hl7.org/fhir/us/core/StructureDefinition/us-core-practitioner"
                ]
              },
              "text": {
                "status": "generated",
                "div": "<div xmlns=\"http://www.w3.org/1999/xhtml\">Francois McGuken</div>"
              },
              "identifier": [
                {
                  "system": "http://hl7.org.fhir/sid/us-npi",
                  "value": "9941339100"
                }
              ],
              "active": true,
              "name": [
                {
                  "family": "McGuken",
                  "given": [
                    "Francois"
                  ],
                  "suffix": [
                    "MD"
                  ]
                }
              ]
            }
          },
          {
            "fullUrl": "AllergyIntolerance/penicillin",
            "resource": {
              "resourceType": "AllergyIntolerance",
              "id": "penicillin",
              "meta": {
                "profile": [
                  "http://hl7.org/fhir/us/core/StructureDefinition/us-core-allergyintolerance"
                ]
              },
              "text": {
                "status": "extensions",
                "div": "<div xmlns=\"http://www.w3.org/1999/xhtml\"><p><b>Narrative</b></p><p><b>id</b>: example</p><p><b>meta</b>: </p><p><b>clinicalStatus</b>: <span title=\"Codes: {http://terminology.hl7.org/CodeSystem/allergyintolerance-clinical active}\">Active</span></p><p><b>verificationStatus</b>: <span title=\"Codes: {http://terminology.hl7.org/CodeSystem/allergyintolerance-verification confirmed}\">Confirmed</span></p><p><b>category</b>: medication</p><p><b>criticality</b>: high</p><p><b>code</b>: <span title=\"Codes: {http://snomed.info/sct 372598006}\">Penicillinase-sensitive penicillin</span></p><p><b>patient</b>: <a href=\"Patient-example.html\">Zarla Moon Doy. Generated Summary: id: example; Medical Record Number: 4399469315; active; Zarla Moon Doy ; ph: 616-676-5017, zdoyc@nymag.com; gender: female; birthDate: 1954-03-22</a></p><h3>Reactions</h3><table class=\"grid\"><tr><td>-</td><td><b>Manifestation</b></td><td><b>Severity</b></td></tr><tr><td>*</td><td><span title=\"Codes: {http://snomed.info/sct 139684003}\">Rash</span></td><td>mild</td></tr></table></div>"
              },
              "clinicalStatus": {
                "coding": [
                  {
                    "system": "http://terminology.hl7.org/CodeSystem/allergyintolerance-clinical",
                    "code": "active"
                  }
                ]
              },
              "verificationStatus": {
                "coding": [
                  {
                    "system": "http://terminology.hl7.org/CodeSystem/allergyintolerance-verification",
                    "code": "confirmed"
                  }
                ]
              },
              "category": [
                "medication"
              ],
              "criticality": "high",
              "code": {
                "coding": [
                  {
                    "system": "http://snomed.info/sct",
                    "code": "372598006",
                    "display": "Penicillinase-sensitive penicillin"
                  }
                ],
                "text": "Penicillinase-sensitive penicillin"
              },
              "patient": {
                "reference": "Patient/zarla-doy"
              },
              "reaction": [
                {
                  "manifestation": [
                    {
                      "coding": [
                        {
                          "system": "http://snomed.info/sct",
                          "code": "271807003",
                          "display": "Rash"
                        }
                      ],
                      "text": "Rash"
                    }
                  ],
                  "severity": "mild"
                }
              ]
            }
          },
          {
            "fullUrl": "MedicationAdministration/medicationadministration-lisinopril",
            "resource": {
              "resourceType": "MedicationAdministration",
              "id": "medicationadministration-lisinopril",
              "meta": {
                "profile": [
                  "http://hl7.org/fhir/us/health-care-surveys-reporting/StructureDefinition/hcs-medicationadministration"
                ]
              },
              "text": {
                "status": "extensions",
                "div": "<div xmlns=\"http://www.w3.org/1999/xhtml\"><p><b>Lisinopril 10 mg taken by mouth once per day</b></p></div>"
              },
              "status": "completed",
              "medicationCodeableConcept": {
                "coding": [
                  {
                    "system": "http://www.nlm.nih.gov/research/umls/rxnorm",
                    "code": "316151",
                    "display": "Lisinopril 10 mg"
                  }
                ]
              },
              "subject": {
                "reference": "Patient/zarla-doy"
              },
              "effectivePeriod": {
                "start": "2023-08-14T03:30:00+00:00",
                "end": "2023-08-14T13:30:00+00:00"
              },
              "performer": [
                {
                  "actor": {
                    "reference": "Practitioner/mcguken"
                  }
                }
              ],
              "dosage": {
                "text": "10 mg taken by mouth once per day",
                "route": {
                  "coding": [
                    {
                      "system": "http://snomed.info/sct",
                      "code": "26643006",
                      "display": "Oral use"
                    }
                  ]
                },
                "dose": {
                  "value": 10,
                  "unit": "mg",
                  "system": "http://unitsofmeasure.org",
                  "code": "mg"
                }
              }
            }
          }
        ]
      }
    }
  ]
}